"","Group_Id","Prolific_Id","Subject_Id","Role_Id","Task_Nr","Trial_Nr","Trial_Id","Input","rt_listener","rt_speaker","condition","category","success","selection1","selection2","selection3","difficulty_answer_listener","difficulty_answer_speaker","easiness_answer_listener","easiness_answer_speaker","need_for_discussion_listener","need_for_discussion_speaker","Completed","Age","Gender","Language","Location","Start_Time","End_Time"
"1","tintcrj","65e0fc6b883b6a493d50e0a5",5,1,3,1,17,"Furniture",NA,3871,"Concrete","Furniture",TRUE,NA,NA,NA,NA,NA,NA,NA,NA,NA,TRUE,28,"female","en","US",2025-03-07 15:54:22.724,2025-03-07 16:28:01.539
"2","tintcrj","65e0fc6b883b6a493d50e0a5",5,1,4,1,1,NA,NA,NA,NA,NA,NA,NA,NA,NA,NA,"Plants",NA,"Beverages",NA,"Animals",TRUE,28,"female","en","US",2025-03-07 15:54:22.724,2025-03-07 16:28:01.539
"3","tintcrj","65e0fc6b883b6a493d50e0a5",5,1,3,2,6,"Relationships",NA,15445,"Abstract","Relationship",FALSE,NA,NA,NA,NA,NA,NA,NA,NA,NA,TRUE,28,"female","en","US",2025-03-07 15:54:22.724,2025-03-07 16:28:01.539
"4","tintcrj","65e0fc6b883b6a493d50e0a5",5,1,3,3,5,"Amount",NA,150683,"Abstract","Quantity",FALSE,NA,NA,NA,NA,NA,NA,NA,NA,NA,TRUE,28,"female","en","US",2025-03-07 15:54:22.724,2025-03-07 16:28:01.539
"5","tintcrj","65e0fc6b883b6a493d50e0a5",5,1,3,4,9,"Sports",NA,26022,"Abstract","Sport",TRUE,NA,NA,NA,NA,NA,NA,NA,NA,NA,TRUE,28,"female","en","US",2025-03-07 15:54:22.724,2025-03-07 16:28:01.539
"6","tintcrj","65e0fc6b883b6a493d50e0a5",5,1,3,5,4,"Professions",NA,24070,"Abstract","Profession",TRUE,NA,NA,NA,NA,NA,NA,NA,NA,NA,TRUE,28,"female","en","US",2025-03-07 15:54:22.724,2025-03-07 16:28:01.539
"7","tintcrj","65e0fc6b883b6a493d50e0a5",5,1,3,6,2,"Crafts",NA,30594,"Abstract","Craft",TRUE,NA,NA,NA,NA,NA,NA,NA,NA,NA,TRUE,28,"female","en","US",2025-03-07 15:54:22.724,2025-03-07 16:28:01.539
"8","tintcrj","65e0fc6b883b6a493d50e0a5",5,1,3,7,16,"Fruits",NA,8536,"Concrete","Fruit",TRUE,NA,NA,NA,NA,NA,NA,NA,NA,NA,TRUE,28,"female","en","US",2025-03-07 15:54:22.724,2025-03-07 16:28:01.539
"9","tintcrj","65e0fc6b883b6a493d50e0a5",5,1,3,8,10,"time",NA,5506,"Abstract","Time",TRUE,NA,NA,NA,NA,NA,NA,NA,NA,NA,TRUE,28,"female","en","US",2025-03-07 15:54:22.724,2025-03-07 16:28:01.539
"10","tintcrj","65e0fc6b883b6a493d50e0a5",5,1,3,9,8,"shapes",NA,3298,"Abstract","Shape",TRUE,NA,NA,NA,NA,NA,NA,NA,NA,NA,TRUE,28,"female","en","US",2025-03-07 15:54:22.724,2025-03-07 16:28:01.539
"11","tintcrj","65e0fc6b883b6a493d50e0a5",5,1,3,10,12,"Buildings",NA,26053,"Concrete","Building",FALSE,NA,NA,NA,NA,NA,NA,NA,NA,NA,TRUE,28,"female","en","US",2025-03-07 15:54:22.724,2025-03-07 16:28:01.539
"12","tintcrj","65e0fc6b883b6a493d50e0a5",5,1,3,11,3,"emotions",NA,34542,"Abstract","Emotion",TRUE,NA,NA,NA,NA,NA,NA,NA,NA,NA,TRUE,28,"female","en","US",2025-03-07 15:54:22.724,2025-03-07 16:28:01.539
"13","tintcrj","65e0fc6b883b6a493d50e0a5",5,1,3,12,13,"Clothing",NA,28042,"Concrete","Clothing",FALSE,NA,NA,NA,NA,NA,NA,NA,NA,NA,TRUE,28,"female","en","US",2025-03-07 15:54:22.724,2025-03-07 16:28:01.539
"14","tintcrj","65e0fc6b883b6a493d50e0a5",5,1,3,13,15,"Food",NA,71550,"Concrete","Food",FALSE,NA,NA,NA,NA,NA,NA,NA,NA,NA,TRUE,28,"female","en","US",2025-03-07 15:54:22.724,2025-03-07 16:28:01.539
"15","tintcrj","65e0fc6b883b6a493d50e0a5",5,1,3,14,11,"animals",NA,4337,"Concrete","Animal",TRUE,NA,NA,NA,NA,NA,NA,NA,NA,NA,TRUE,28,"female","en","US",2025-03-07 15:54:22.724,2025-03-07 16:28:01.539
"16","tintcrj","65e0fc6b883b6a493d50e0a5",5,1,3,15,19,"tools",NA,3759,"Concrete","Tool",TRUE,NA,NA,NA,NA,NA,NA,NA,NA,NA,TRUE,28,"female","en","US",2025-03-07 15:54:22.724,2025-03-07 16:28:01.539
"17","tintcrj","65e0fc6b883b6a493d50e0a5",5,1,3,16,1,"Communication",NA,55048,"Abstract","Communication",TRUE,NA,NA,NA,NA,NA,NA,NA,NA,NA,TRUE,28,"female","en","US",2025-03-07 15:54:22.724,2025-03-07 16:28:01.539
"18","tintcrj","65e0fc6b883b6a493d50e0a5",5,1,3,17,20,"Vehicles",NA,35958,"Concrete","Vehicle",TRUE,NA,NA,NA,NA,NA,NA,NA,NA,NA,TRUE,28,"female","en","US",2025-03-07 15:54:22.724,2025-03-07 16:28:01.539
"19","tintcrj","65e0fc6b883b6a493d50e0a5",5,1,3,18,7,"Religion",NA,2825,"Abstract","Religion",TRUE,NA,NA,NA,NA,NA,NA,NA,NA,NA,TRUE,28,"female","en","US",2025-03-07 15:54:22.724,2025-03-07 16:28:01.539
"20","tintcrj","65e0fc6b883b6a493d50e0a5",5,1,3,19,14,"Beverages",NA,33747,"Concrete","Drink",FALSE,NA,NA,NA,NA,NA,NA,NA,NA,NA,TRUE,28,"female","en","US",2025-03-07 15:54:22.724,2025-03-07 16:28:01.539
"21","tintcrj","65e0fc6b883b6a493d50e0a5",5,1,3,20,18,"Plants",NA,21638,"Concrete","Plant",FALSE,NA,NA,NA,NA,NA,NA,NA,NA,NA,TRUE,28,"female","en","US",2025-03-07 15:54:22.724,2025-03-07 16:28:01.539
"22","tintcrj","67b96ecf0e4475435cbb8439",6,2,3,1,17,"Furniture",16807,NA,"Concrete","Furniture",TRUE,"target1","target2","target3",NA,NA,NA,NA,NA,NA,TRUE,25,"male","en","US",2025-03-07 16:03:05.869,2025-03-07 16:29:32.359
"23","tintcrj","67b96ecf0e4475435cbb8439",6,2,4,1,1,NA,NA,NA,NA,NA,NA,NA,NA,NA,"na",NA,"every one",NA,"na",NA,TRUE,25,"male","en","US",2025-03-07 16:03:05.869,2025-03-07 16:29:32.359
"24","tintcrj","67b96ecf0e4475435cbb8439",6,2,3,2,6,"Relationships",10118,NA,"Abstract","Relationship",FALSE,"target1","target3","distractor2",NA,NA,NA,NA,NA,NA,TRUE,25,"male","en","US",2025-03-07 16:03:05.869,2025-03-07 16:29:32.359
"25","tintcrj","67b96ecf0e4475435cbb8439",6,2,3,3,5,"Amount",14616,NA,"Abstract","Quantity",FALSE,"target1","distractor1","distractor2",NA,NA,NA,NA,NA,NA,TRUE,25,"male","en","US",2025-03-07 16:03:05.869,2025-03-07 16:29:32.359
"26","tintcrj","67b96ecf0e4475435cbb8439",6,2,3,4,9,"Sports",16966,NA,"Abstract","Sport",TRUE,"target3","target1","target2",NA,NA,NA,NA,NA,NA,TRUE,25,"male","en","US",2025-03-07 16:03:05.869,2025-03-07 16:29:32.359
"27","tintcrj","67b96ecf0e4475435cbb8439",6,2,3,5,4,"Professions",6673,NA,"Abstract","Profession",TRUE,"target1","target2","target3",NA,NA,NA,NA,NA,NA,TRUE,25,"male","en","US",2025-03-07 16:03:05.869,2025-03-07 16:29:32.359
"28","tintcrj","67b96ecf0e4475435cbb8439",6,2,3,6,2,"Crafts",12224,NA,"Abstract","Craft",TRUE,"target2","target3","target1",NA,NA,NA,NA,NA,NA,TRUE,25,"male","en","US",2025-03-07 16:03:05.869,2025-03-07 16:29:32.359
"29","tintcrj","67b96ecf0e4475435cbb8439",6,2,3,7,16,"Fruits",8855,NA,"Concrete","Fruit",TRUE,"target1","target3","target2",NA,NA,NA,NA,NA,NA,TRUE,25,"male","en","US",2025-03-07 16:03:05.869,2025-03-07 16:29:32.359
"30","tintcrj","67b96ecf0e4475435cbb8439",6,2,3,8,10,"time",45893,NA,"Abstract","Time",TRUE,"target3","target2","target1",NA,NA,NA,NA,NA,NA,TRUE,25,"male","en","US",2025-03-07 16:03:05.869,2025-03-07 16:29:32.359
"31","tintcrj","67b96ecf0e4475435cbb8439",6,2,3,9,8,"shapes",31473,NA,"Abstract","Shape",TRUE,"target1","target2","target3",NA,NA,NA,NA,NA,NA,TRUE,25,"male","en","US",2025-03-07 16:03:05.869,2025-03-07 16:29:32.359
"32","tintcrj","67b96ecf0e4475435cbb8439",6,2,3,10,12,"Buildings",25972,NA,"Concrete","Building",FALSE,"target3","target2","distractor1",NA,NA,NA,NA,NA,NA,TRUE,25,"male","en","US",2025-03-07 16:03:05.869,2025-03-07 16:29:32.359
"33","tintcrj","67b96ecf0e4475435cbb8439",6,2,3,11,3,"emotions",6923,NA,"Abstract","Emotion",TRUE,"target1","target2","target3",NA,NA,NA,NA,NA,NA,TRUE,25,"male","en","US",2025-03-07 16:03:05.869,2025-03-07 16:29:32.359
"34","tintcrj","67b96ecf0e4475435cbb8439",6,2,3,12,13,"Clothing",10021,NA,"Concrete","Clothing",FALSE,"distractor1","target3","target1",NA,NA,NA,NA,NA,NA,TRUE,25,"male","en","US",2025-03-07 16:03:05.869,2025-03-07 16:29:32.359
"35","tintcrj","67b96ecf0e4475435cbb8439",6,2,3,13,15,"Food",12998,NA,"Concrete","Food",FALSE,"distractor1","target3","target1",NA,NA,NA,NA,NA,NA,TRUE,25,"male","en","US",2025-03-07 16:03:05.869,2025-03-07 16:29:32.359
"36","tintcrj","67b96ecf0e4475435cbb8439",6,2,3,14,11,"animals",7809,NA,"Concrete","Animal",TRUE,"target3","target2","target1",NA,NA,NA,NA,NA,NA,TRUE,25,"male","en","US",2025-03-07 16:03:05.869,2025-03-07 16:29:32.359
"37","tintcrj","67b96ecf0e4475435cbb8439",6,2,3,15,19,"tools",19526,NA,"Concrete","Tool",TRUE,"target1","target3","target2",NA,NA,NA,NA,NA,NA,TRUE,25,"male","en","US",2025-03-07 16:03:05.869,2025-03-07 16:29:32.359
"38","tintcrj","67b96ecf0e4475435cbb8439",6,2,3,16,1,"Communication",7417,NA,"Abstract","Communication",TRUE,"target1","target2","target3",NA,NA,NA,NA,NA,NA,TRUE,25,"male","en","US",2025-03-07 16:03:05.869,2025-03-07 16:29:32.359
"39","tintcrj","67b96ecf0e4475435cbb8439",6,2,3,17,20,"Vehicles",8771,NA,"Concrete","Vehicle",TRUE,"target2","target1","target3",NA,NA,NA,NA,NA,NA,TRUE,25,"male","en","US",2025-03-07 16:03:05.869,2025-03-07 16:29:32.359
"40","tintcrj","67b96ecf0e4475435cbb8439",6,2,3,18,7,"Religion",7135,NA,"Abstract","Religion",TRUE,"target3","target1","target2",NA,NA,NA,NA,NA,NA,TRUE,25,"male","en","US",2025-03-07 16:03:05.869,2025-03-07 16:29:32.359
"41","tintcrj","67b96ecf0e4475435cbb8439",6,2,3,19,14,"Beverages",17855,NA,"Concrete","Drink",FALSE,"target2","target3","distractor2",NA,NA,NA,NA,NA,NA,TRUE,25,"male","en","US",2025-03-07 16:03:05.869,2025-03-07 16:29:32.359
"42","tintcrj","67b96ecf0e4475435cbb8439",6,2,3,20,18,"Plants",12821,NA,"Concrete","Plant",FALSE,"target2","target1","distractor1",NA,NA,NA,NA,NA,NA,TRUE,25,"male","en","US",2025-03-07 16:03:05.869,2025-03-07 16:29:32.359
"43","n444thq","5efe7ad27d413c3869386ef7",12,1,3,1,9,"sports",NA,3353,"Abstract","Sport",TRUE,NA,NA,NA,NA,NA,NA,NA,NA,NA,TRUE,26,"female","en","US",2025-03-07 16:47:53.454,2025-03-07 16:57:29.793
"44","n444thq","5efe7ad27d413c3869386ef7",12,1,4,1,1,NA,NA,NA,NA,NA,NA,NA,NA,NA,NA,"The grid that was stating church, hospital and cottage.",NA,"All the others I felt like were very easy.",NA,NA,TRUE,26,"female","en","US",2025-03-07 16:47:53.454,2025-03-07 16:57:29.793
"45","n444thq","5efe7ad27d413c3869386ef7",12,1,3,2,19,"tools",NA,3283,"Concrete","Tool",TRUE,NA,NA,NA,NA,NA,NA,NA,NA,NA,TRUE,26,"female","en","US",2025-03-07 16:47:53.454,2025-03-07 16:57:29.793
"46","n444thq","5efe7ad27d413c3869386ef7",12,1,3,3,8,"shapes",NA,2039,"Abstract","Shape",TRUE,NA,NA,NA,NA,NA,NA,NA,NA,NA,TRUE,26,"female","en","US",2025-03-07 16:47:53.454,2025-03-07 16:57:29.793
"47","n444thq","5efe7ad27d413c3869386ef7",12,1,3,4,14,"ingredients",NA,2217,"Concrete","Drink",FALSE,NA,NA,NA,NA,NA,NA,NA,NA,NA,TRUE,26,"female","en","US",2025-03-07 16:47:53.454,2025-03-07 16:57:29.793
"48","n444thq","5efe7ad27d413c3869386ef7",12,1,3,5,10,"times",NA,1993,"Abstract","Time",TRUE,NA,NA,NA,NA,NA,NA,NA,NA,NA,TRUE,26,"female","en","US",2025-03-07 16:47:53.454,2025-03-07 16:57:29.793
"49","n444thq","5efe7ad27d413c3869386ef7",12,1,3,6,7,"religions",NA,2442,"Abstract","Religion",TRUE,NA,NA,NA,NA,NA,NA,NA,NA,NA,TRUE,26,"female","en","US",2025-03-07 16:47:53.454,2025-03-07 16:57:29.793
"50","n444thq","5efe7ad27d413c3869386ef7",12,1,3,7,1,"discussions",NA,4567,"Abstract","Communication",TRUE,NA,NA,NA,NA,NA,NA,NA,NA,NA,TRUE,26,"female","en","US",2025-03-07 16:47:53.454,2025-03-07 16:57:29.793
"51","n444thq","5efe7ad27d413c3869386ef7",12,1,3,8,5,"measurements",NA,2044,"Abstract","Quantity",FALSE,NA,NA,NA,NA,NA,NA,NA,NA,NA,TRUE,26,"female","en","US",2025-03-07 16:47:53.454,2025-03-07 16:57:29.793
"52","n444thq","5efe7ad27d413c3869386ef7",12,1,3,9,11,"animal bug",NA,5413,"Concrete","Animal",TRUE,NA,NA,NA,NA,NA,NA,NA,NA,NA,TRUE,26,"female","en","US",2025-03-07 16:47:53.454,2025-03-07 16:57:29.793
"53","n444thq","5efe7ad27d413c3869386ef7",12,1,3,10,20,"transportation",NA,6263,"Concrete","Vehicle",TRUE,NA,NA,NA,NA,NA,NA,NA,NA,NA,TRUE,26,"female","en","US",2025-03-07 16:47:53.454,2025-03-07 16:57:29.793
"54","n444thq","5efe7ad27d413c3869386ef7",12,1,3,11,12,"places",NA,11590,"Concrete","Building",TRUE,NA,NA,NA,NA,NA,NA,NA,NA,NA,TRUE,26,"female","en","US",2025-03-07 16:47:53.454,2025-03-07 16:57:29.793
"55","n444thq","5efe7ad27d413c3869386ef7",12,1,3,12,13,"clothing",NA,1960,"Concrete","Clothing",TRUE,NA,NA,NA,NA,NA,NA,NA,NA,NA,TRUE,26,"female","en","US",2025-03-07 16:47:53.454,2025-03-07 16:57:29.793
"56","n444thq","5efe7ad27d413c3869386ef7",12,1,3,13,17,"furniture",NA,2858,"Concrete","Furniture",TRUE,NA,NA,NA,NA,NA,NA,NA,NA,NA,TRUE,26,"female","en","US",2025-03-07 16:47:53.454,2025-03-07 16:57:29.793
"57","n444thq","5efe7ad27d413c3869386ef7",12,1,3,14,16,"fruits",NA,4286,"Concrete","Fruit",TRUE,NA,NA,NA,NA,NA,NA,NA,NA,NA,TRUE,26,"female","en","US",2025-03-07 16:47:53.454,2025-03-07 16:57:29.793
"58","n444thq","5efe7ad27d413c3869386ef7",12,1,3,15,18,"plants",NA,2416,"Concrete","Plant",TRUE,NA,NA,NA,NA,NA,NA,NA,NA,NA,TRUE,26,"female","en","US",2025-03-07 16:47:53.454,2025-03-07 16:57:29.793
"59","n444thq","5efe7ad27d413c3869386ef7",12,1,3,16,2,"hobbies or jobs",NA,4906,"Abstract","Craft",TRUE,NA,NA,NA,NA,NA,NA,NA,NA,NA,TRUE,26,"female","en","US",2025-03-07 16:47:53.454,2025-03-07 16:57:29.793
"60","n444thq","5efe7ad27d413c3869386ef7",12,1,3,17,4,"professions",NA,2159,"Abstract","Profession",TRUE,NA,NA,NA,NA,NA,NA,NA,NA,NA,TRUE,26,"female","en","US",2025-03-07 16:47:53.454,2025-03-07 16:57:29.793
"61","n444thq","5efe7ad27d413c3869386ef7",12,1,3,18,3,"emotions",NA,1599,"Abstract","Emotion",TRUE,NA,NA,NA,NA,NA,NA,NA,NA,NA,TRUE,26,"female","en","US",2025-03-07 16:47:53.454,2025-03-07 16:57:29.793
"62","n444thq","5efe7ad27d413c3869386ef7",12,1,3,19,15,"food",NA,2584,"Concrete","Food",TRUE,NA,NA,NA,NA,NA,NA,NA,NA,NA,TRUE,26,"female","en","US",2025-03-07 16:47:53.454,2025-03-07 16:57:29.793
"63","n444thq","5efe7ad27d413c3869386ef7",12,1,3,20,6,"relationships",NA,2595,"Abstract","Relationship",TRUE,NA,NA,NA,NA,NA,NA,NA,NA,NA,TRUE,26,"female","en","US",2025-03-07 16:47:53.454,2025-03-07 16:57:29.793
"64","n444thq","663fa2cd4f6b74bb4d6ef21b",13,2,3,1,9,"sports",8986,NA,"Abstract","Sport",TRUE,"target1","target2","target3",NA,NA,NA,NA,NA,NA,TRUE,28,"female","en","US",2025-03-07 16:49:36.686,2025-03-07 16:56:59.923
"65","n444thq","663fa2cd4f6b74bb4d6ef21b",13,2,4,1,1,NA,NA,NA,NA,NA,NA,NA,NA,NA,"none",NA,"all",NA,"none",NA,TRUE,28,"female","en","US",2025-03-07 16:49:36.686,2025-03-07 16:56:59.923
"66","n444thq","663fa2cd4f6b74bb4d6ef21b",13,2,3,2,19,"tools",5277,NA,"Concrete","Tool",TRUE,"target1","target2","target3",NA,NA,NA,NA,NA,NA,TRUE,28,"female","en","US",2025-03-07 16:49:36.686,2025-03-07 16:56:59.923
"67","n444thq","663fa2cd4f6b74bb4d6ef21b",13,2,3,3,8,"shapes",4394,NA,"Abstract","Shape",TRUE,"target3","target1","target2",NA,NA,NA,NA,NA,NA,TRUE,28,"female","en","US",2025-03-07 16:49:36.686,2025-03-07 16:56:59.923
"68","n444thq","663fa2cd4f6b74bb4d6ef21b",13,2,3,4,14,"ingredients",4846,NA,"Concrete","Drink",FALSE,"distractor2","target3","distractor1",NA,NA,NA,NA,NA,NA,TRUE,28,"female","en","US",2025-03-07 16:49:36.686,2025-03-07 16:56:59.923
"69","n444thq","663fa2cd4f6b74bb4d6ef21b",13,2,3,5,10,"times",3797,NA,"Abstract","Time",TRUE,"target1","target2","target3",NA,NA,NA,NA,NA,NA,TRUE,28,"female","en","US",2025-03-07 16:49:36.686,2025-03-07 16:56:59.923
"70","n444thq","663fa2cd4f6b74bb4d6ef21b",13,2,3,6,7,"religions",6367,NA,"Abstract","Religion",TRUE,"target3","target1","target2",NA,NA,NA,NA,NA,NA,TRUE,28,"female","en","US",2025-03-07 16:49:36.686,2025-03-07 16:56:59.923
"71","n444thq","663fa2cd4f6b74bb4d6ef21b",13,2,3,7,1,"discussions",5774,NA,"Abstract","Communication",TRUE,"target3","target1","target2",NA,NA,NA,NA,NA,NA,TRUE,28,"female","en","US",2025-03-07 16:49:36.686,2025-03-07 16:56:59.923
"72","n444thq","663fa2cd4f6b74bb4d6ef21b",13,2,3,8,5,"measurements",11125,NA,"Abstract","Quantity",FALSE,"distractor1","target1","distractor2",NA,NA,NA,NA,NA,NA,TRUE,28,"female","en","US",2025-03-07 16:49:36.686,2025-03-07 16:56:59.923
"73","n444thq","663fa2cd4f6b74bb4d6ef21b",13,2,3,9,11,"animal bug",9868,NA,"Concrete","Animal",TRUE,"target3","target1","target2",NA,NA,NA,NA,NA,NA,TRUE,28,"female","en","US",2025-03-07 16:49:36.686,2025-03-07 16:56:59.923
"74","n444thq","663fa2cd4f6b74bb4d6ef21b",13,2,3,10,20,"transportation",8878,NA,"Concrete","Vehicle",TRUE,"target2","target3","target1",NA,NA,NA,NA,NA,NA,TRUE,28,"female","en","US",2025-03-07 16:49:36.686,2025-03-07 16:56:59.923
"75","n444thq","663fa2cd4f6b74bb4d6ef21b",13,2,3,11,12,"places",6062,NA,"Concrete","Building",TRUE,"target2","target1","target3",NA,NA,NA,NA,NA,NA,TRUE,28,"female","en","US",2025-03-07 16:49:36.686,2025-03-07 16:56:59.923
"76","n444thq","663fa2cd4f6b74bb4d6ef21b",13,2,3,12,13,"clothing",4867,NA,"Concrete","Clothing",TRUE,"target2","target1","target3",NA,NA,NA,NA,NA,NA,TRUE,28,"female","en","US",2025-03-07 16:49:36.686,2025-03-07 16:56:59.923
"77","n444thq","663fa2cd4f6b74bb4d6ef21b",13,2,3,13,17,"furniture",8841,NA,"Concrete","Furniture",TRUE,"target3","target2","target1",NA,NA,NA,NA,NA,NA,TRUE,28,"female","en","US",2025-03-07 16:49:36.686,2025-03-07 16:56:59.923
"78","n444thq","663fa2cd4f6b74bb4d6ef21b",13,2,3,14,16,"fruits",4875,NA,"Concrete","Fruit",TRUE,"target1","target3","target2",NA,NA,NA,NA,NA,NA,TRUE,28,"female","en","US",2025-03-07 16:49:36.686,2025-03-07 16:56:59.923
"79","n444thq","663fa2cd4f6b74bb4d6ef21b",13,2,3,15,18,"plants",5594,NA,"Concrete","Plant",TRUE,"target1","target2","target3",NA,NA,NA,NA,NA,NA,TRUE,28,"female","en","US",2025-03-07 16:49:36.686,2025-03-07 16:56:59.923
"80","n444thq","663fa2cd4f6b74bb4d6ef21b",13,2,3,16,2,"hobbies or jobs",5003,NA,"Abstract","Craft",TRUE,"target1","target2","target3",NA,NA,NA,NA,NA,NA,TRUE,28,"female","en","US",2025-03-07 16:49:36.686,2025-03-07 16:56:59.923
"81","n444thq","663fa2cd4f6b74bb4d6ef21b",13,2,3,17,4,"professions",4168,NA,"Abstract","Profession",TRUE,"target1","target3","target2",NA,NA,NA,NA,NA,NA,TRUE,28,"female","en","US",2025-03-07 16:49:36.686,2025-03-07 16:56:59.923
"82","n444thq","663fa2cd4f6b74bb4d6ef21b",13,2,3,18,3,"emotions",5876,NA,"Abstract","Emotion",TRUE,"target2","target3","target1",NA,NA,NA,NA,NA,NA,TRUE,28,"female","en","US",2025-03-07 16:49:36.686,2025-03-07 16:56:59.923
"83","n444thq","663fa2cd4f6b74bb4d6ef21b",13,2,3,19,15,"food",4723,NA,"Concrete","Food",TRUE,"target2","target1","target3",NA,NA,NA,NA,NA,NA,TRUE,28,"female","en","US",2025-03-07 16:49:36.686,2025-03-07 16:56:59.923
"84","n444thq","663fa2cd4f6b74bb4d6ef21b",13,2,3,20,6,"relationships",4706,NA,"Abstract","Relationship",TRUE,"target2","target3","target1",NA,NA,NA,NA,NA,NA,TRUE,28,"female","en","US",2025-03-07 16:49:36.686,2025-03-07 16:56:59.923
"85","djblnb7","60fd83ff5af11073b7d1ed62",15,2,3,1,1,"speech",8638,NA,"Abstract","Communication",TRUE,"target2","target1","target3",NA,NA,NA,NA,NA,NA,TRUE,24,"female","en","US",2025-03-07 16:59:57.47,2025-03-07 17:10:04
"86","djblnb7","60fd83ff5af11073b7d1ed62",15,2,4,1,1,NA,NA,NA,NA,NA,NA,NA,NA,NA,"Wheels",NA,"Fruit",NA,"Wheels",NA,TRUE,24,"female","en","US",2025-03-07 16:59:57.47,2025-03-07 17:10:04
"87","djblnb7","60fd83ff5af11073b7d1ed62",15,2,3,2,2,"handwork",12926,NA,"Abstract","Craft",TRUE,"target3","target2","target1",NA,NA,NA,NA,NA,NA,TRUE,24,"female","en","US",2025-03-07 16:59:57.47,2025-03-07 17:10:04
"88","djblnb7","60fd83ff5af11073b7d1ed62",15,2,3,3,9,"Sport",9906,NA,"Abstract","Sport",TRUE,"target1","target3","target2",NA,NA,NA,NA,NA,NA,TRUE,24,"female","en","US",2025-03-07 16:59:57.47,2025-03-07 17:10:04
"89","djblnb7","60fd83ff5af11073b7d1ed62",15,2,3,4,12,"Building",10019,NA,"Concrete","Building",FALSE,"target2","target3","distractor1",NA,NA,NA,NA,NA,NA,TRUE,24,"female","en","US",2025-03-07 16:59:57.47,2025-03-07 17:10:04
"90","djblnb7","60fd83ff5af11073b7d1ed62",15,2,3,5,11,"Animal",5004,NA,"Concrete","Animal",TRUE,"target3","target1","target2",NA,NA,NA,NA,NA,NA,TRUE,24,"female","en","US",2025-03-07 16:59:57.47,2025-03-07 17:10:04
"91","djblnb7","60fd83ff5af11073b7d1ed62",15,2,3,6,3,"Emotions",3247,NA,"Abstract","Emotion",TRUE,"target2","target1","target3",NA,NA,NA,NA,NA,NA,TRUE,24,"female","en","US",2025-03-07 16:59:57.47,2025-03-07 17:10:04
"92","djblnb7","60fd83ff5af11073b7d1ed62",15,2,3,7,10,"Time",3571,NA,"Abstract","Time",TRUE,"target3","target1","target2",NA,NA,NA,NA,NA,NA,TRUE,24,"female","en","US",2025-03-07 16:59:57.47,2025-03-07 17:10:04
"93","djblnb7","60fd83ff5af11073b7d1ed62",15,2,3,8,17,"Furniture",9310,NA,"Concrete","Furniture",TRUE,"target3","target2","target1",NA,NA,NA,NA,NA,NA,TRUE,24,"female","en","US",2025-03-07 16:59:57.47,2025-03-07 17:10:04
"94","djblnb7","60fd83ff5af11073b7d1ed62",15,2,3,9,5,"Music",23045,NA,"Abstract","Quantity",FALSE,"target1","unrelated4","target2",NA,NA,NA,NA,NA,NA,TRUE,24,"female","en","US",2025-03-07 16:59:57.47,2025-03-07 17:10:04
"95","djblnb7","60fd83ff5af11073b7d1ed62",15,2,3,10,20,"Wheels",6283,NA,"Concrete","Vehicle",FALSE,"distractor2","target1","target2",NA,NA,NA,NA,NA,NA,TRUE,24,"female","en","US",2025-03-07 16:59:57.47,2025-03-07 17:10:04
"96","djblnb7","60fd83ff5af11073b7d1ed62",15,2,3,11,6,"Relationship",5826,NA,"Abstract","Relationship",TRUE,"target2","target3","target1",NA,NA,NA,NA,NA,NA,TRUE,24,"female","en","US",2025-03-07 16:59:57.47,2025-03-07 17:10:04
"97","djblnb7","60fd83ff5af11073b7d1ed62",15,2,3,12,8,"Shapes",4448,NA,"Abstract","Shape",TRUE,"target1","target2","target3",NA,NA,NA,NA,NA,NA,TRUE,24,"female","en","US",2025-03-07 16:59:57.47,2025-03-07 17:10:04
"98","djblnb7","60fd83ff5af11073b7d1ed62",15,2,3,13,19,"Tools",5411,NA,"Concrete","Tool",TRUE,"target1","target2","target3",NA,NA,NA,NA,NA,NA,TRUE,24,"female","en","US",2025-03-07 16:59:57.47,2025-03-07 17:10:04
"99","djblnb7","60fd83ff5af11073b7d1ed62",15,2,3,14,4,"Occupation",7684,NA,"Abstract","Profession",TRUE,"target3","target1","target2",NA,NA,NA,NA,NA,NA,TRUE,24,"female","en","US",2025-03-07 16:59:57.47,2025-03-07 17:10:04
"100","djblnb7","60fd83ff5af11073b7d1ed62",15,2,3,15,14,"Food",10975,NA,"Concrete","Drink",FALSE,"target3","distractor1","target1",NA,NA,NA,NA,NA,NA,TRUE,24,"female","en","US",2025-03-07 16:59:57.47,2025-03-07 17:10:04
"101","djblnb7","60fd83ff5af11073b7d1ed62",15,2,3,16,18,"Green plant",16405,NA,"Concrete","Plant",TRUE,"target2","target1","target3",NA,NA,NA,NA,NA,NA,TRUE,24,"female","en","US",2025-03-07 16:59:57.47,2025-03-07 17:10:04
"102","djblnb7","60fd83ff5af11073b7d1ed62",15,2,3,17,7,"Religion",6337,NA,"Abstract","Religion",TRUE,"target1","target3","target2",NA,NA,NA,NA,NA,NA,TRUE,24,"female","en","US",2025-03-07 16:59:57.47,2025-03-07 17:10:04
"103","djblnb7","60fd83ff5af11073b7d1ed62",15,2,3,18,13,"Clothing",14969,NA,"Concrete","Clothing",TRUE,"target1","target3","target2",NA,NA,NA,NA,NA,NA,TRUE,24,"female","en","US",2025-03-07 16:59:57.47,2025-03-07 17:10:04
"104","djblnb7","60fd83ff5af11073b7d1ed62",15,2,3,19,15,"Snack",8002,NA,"Concrete","Food",TRUE,"target3","target2","target1",NA,NA,NA,NA,NA,NA,TRUE,24,"female","en","US",2025-03-07 16:59:57.47,2025-03-07 17:10:04
"105","djblnb7","60fd83ff5af11073b7d1ed62",15,2,3,20,16,"Fruits",5224,NA,"Concrete","Fruit",TRUE,"target3","target1","target2",NA,NA,NA,NA,NA,NA,TRUE,24,"female","en","US",2025-03-07 16:59:57.47,2025-03-07 17:10:04
"106","698s0nc","6792be61e76d14803ce9c2dd",17,2,3,1,8,"shape",4040,NA,"Abstract","Shape",TRUE,"target3","target2","target1",NA,NA,NA,NA,NA,NA,TRUE,18,"female","en","US",2025-03-07 17:06:11.374,2025-03-07 17:15:41.167
"107","698s0nc","6792be61e76d14803ce9c2dd",17,2,4,1,1,NA,NA,NA,NA,NA,NA,NA,NA,NA,"The snack and cloth grids",NA,"Fruit",NA,"Cloth",NA,TRUE,18,"female","en","US",2025-03-07 17:06:11.374,2025-03-07 17:15:41.167
"108","698s0nc","6792be61e76d14803ce9c2dd",17,2,3,2,18,"plant",3611,NA,"Concrete","Plant",TRUE,"target2","target3","target1",NA,NA,NA,NA,NA,NA,TRUE,18,"female","en","US",2025-03-07 17:06:11.374,2025-03-07 17:15:41.167
"109","698s0nc","6792be61e76d14803ce9c2dd",17,2,3,3,14,"drink",4555,NA,"Concrete","Drink",TRUE,"target3","target2","target1",NA,NA,NA,NA,NA,NA,TRUE,18,"female","en","US",2025-03-07 17:06:11.374,2025-03-07 17:15:41.167
"110","698s0nc","6792be61e76d14803ce9c2dd",17,2,3,4,7,"religion",4854,NA,"Abstract","Religion",TRUE,"target2","target1","target3",NA,NA,NA,NA,NA,NA,TRUE,18,"female","en","US",2025-03-07 17:06:11.374,2025-03-07 17:15:41.167
"111","698s0nc","6792be61e76d14803ce9c2dd",17,2,3,5,9,"sport",5567,NA,"Abstract","Sport",TRUE,"target1","target3","target2",NA,NA,NA,NA,NA,NA,TRUE,18,"female","en","US",2025-03-07 17:06:11.374,2025-03-07 17:15:41.167
"112","698s0nc","6792be61e76d14803ce9c2dd",17,2,3,6,13,"cloth",15151,NA,"Concrete","Clothing",TRUE,"target3","target2","target1",NA,NA,NA,NA,NA,NA,TRUE,18,"female","en","US",2025-03-07 17:06:11.374,2025-03-07 17:15:41.167
"113","698s0nc","6792be61e76d14803ce9c2dd",17,2,3,7,3,"emotion",3691,NA,"Abstract","Emotion",TRUE,"target2","target1","target3",NA,NA,NA,NA,NA,NA,TRUE,18,"female","en","US",2025-03-07 17:06:11.374,2025-03-07 17:15:41.167
"114","698s0nc","6792be61e76d14803ce9c2dd",17,2,3,8,20,"wheel",9604,NA,"Concrete","Vehicle",TRUE,"target2","target1","target3",NA,NA,NA,NA,NA,NA,TRUE,18,"female","en","US",2025-03-07 17:06:11.374,2025-03-07 17:15:41.167
"115","698s0nc","6792be61e76d14803ce9c2dd",17,2,3,9,5,"feel",14377,NA,"Abstract","Quantity",FALSE,"target2","unrelated4","unrelated3",NA,NA,NA,NA,NA,NA,TRUE,18,"female","en","US",2025-03-07 17:06:11.374,2025-03-07 17:15:41.167
"116","698s0nc","6792be61e76d14803ce9c2dd",17,2,3,10,12,"building",5328,NA,"Concrete","Building",TRUE,"target2","target3","target1",NA,NA,NA,NA,NA,NA,TRUE,18,"female","en","US",2025-03-07 17:06:11.374,2025-03-07 17:15:41.167
"117","698s0nc","6792be61e76d14803ce9c2dd",17,2,3,11,19,"workshop tool",5755,NA,"Concrete","Tool",TRUE,"target2","target3","target1",NA,NA,NA,NA,NA,NA,TRUE,18,"female","en","US",2025-03-07 17:06:11.374,2025-03-07 17:15:41.167
"118","698s0nc","6792be61e76d14803ce9c2dd",17,2,3,12,6,"synonym for relationship",10764,NA,"Abstract","Relationship",FALSE,"target1","distractor2","target3",NA,NA,NA,NA,NA,NA,TRUE,18,"female","en","US",2025-03-07 17:06:11.374,2025-03-07 17:15:41.167
"119","698s0nc","6792be61e76d14803ce9c2dd",17,2,3,13,4,"occupation",5027,NA,"Abstract","Profession",TRUE,"target3","target2","target1",NA,NA,NA,NA,NA,NA,TRUE,18,"female","en","US",2025-03-07 17:06:11.374,2025-03-07 17:15:41.167
"120","698s0nc","6792be61e76d14803ce9c2dd",17,2,3,14,17,"furniture",5143,NA,"Concrete","Furniture",TRUE,"target2","target1","target3",NA,NA,NA,NA,NA,NA,TRUE,18,"female","en","US",2025-03-07 17:06:11.374,2025-03-07 17:15:41.167
"121","698s0nc","6792be61e76d14803ce9c2dd",17,2,3,15,16,"fruit",4077,NA,"Concrete","Fruit",TRUE,"target2","target1","target3",NA,NA,NA,NA,NA,NA,TRUE,18,"female","en","US",2025-03-07 17:06:11.374,2025-03-07 17:15:41.167
"122","698s0nc","6792be61e76d14803ce9c2dd",17,2,3,16,11,"animal",5483,NA,"Concrete","Animal",TRUE,"target2","target1","target3",NA,NA,NA,NA,NA,NA,TRUE,18,"female","en","US",2025-03-07 17:06:11.374,2025-03-07 17:15:41.167
"123","698s0nc","6792be61e76d14803ce9c2dd",17,2,3,17,2,"handwork",9734,NA,"Abstract","Craft",TRUE,"target1","target2","target3",NA,NA,NA,NA,NA,NA,TRUE,18,"female","en","US",2025-03-07 17:06:11.374,2025-03-07 17:15:41.167
"124","698s0nc","6792be61e76d14803ce9c2dd",17,2,3,18,1,"speech",6197,NA,"Abstract","Communication",TRUE,"target2","target1","target3",NA,NA,NA,NA,NA,NA,TRUE,18,"female","en","US",2025-03-07 17:06:11.374,2025-03-07 17:15:41.167
"125","698s0nc","6792be61e76d14803ce9c2dd",17,2,3,19,10,"time",7219,NA,"Abstract","Time",TRUE,"target2","target1","target3",NA,NA,NA,NA,NA,NA,TRUE,18,"female","en","US",2025-03-07 17:06:11.374,2025-03-07 17:15:41.167
"126","698s0nc","6792be61e76d14803ce9c2dd",17,2,3,20,15,"snack",10529,NA,"Concrete","Food",TRUE,"target2","target3","target1",NA,NA,NA,NA,NA,NA,TRUE,18,"female","en","US",2025-03-07 17:06:11.374,2025-03-07 17:15:41.167
"127","436twxv","675c15e099767573c1619b7f",14,1,3,1,20,"MEANS OF TRANSPORTATION",NA,15341,"Concrete","Vehicle",TRUE,NA,NA,NA,NA,NA,NA,NA,NA,NA,TRUE,22,"male","en","US",2025-03-07 17:35:38.94,2025-03-07 17:53:37.497
"128","436twxv","675c15e099767573c1619b7f",14,1,4,1,1,NA,NA,NA,NA,NA,NA,NA,NA,NA,NA,"NOTHING REALLY",NA,"ALMOST ALL OF THEM",NA,"NONE OF THEM",TRUE,22,"male","en","US",2025-03-07 17:35:38.94,2025-03-07 17:53:37.497
"129","436twxv","675c15e099767573c1619b7f",14,1,3,2,9,"GAMES",NA,6115,"Abstract","Sport",FALSE,NA,NA,NA,NA,NA,NA,NA,NA,NA,TRUE,22,"male","en","US",2025-03-07 17:35:38.94,2025-03-07 17:53:37.497
"130","436twxv","675c15e099767573c1619b7f",14,1,3,3,19,"TOOLS",NA,4726,"Concrete","Tool",TRUE,NA,NA,NA,NA,NA,NA,NA,NA,NA,TRUE,22,"male","en","US",2025-03-07 17:35:38.94,2025-03-07 17:53:37.497
"131","436twxv","675c15e099767573c1619b7f",14,1,3,4,2,"JOBS",NA,4789,"Abstract","Craft",TRUE,NA,NA,NA,NA,NA,NA,NA,NA,NA,TRUE,22,"male","en","US",2025-03-07 17:35:38.94,2025-03-07 17:53:37.497
"132","436twxv","675c15e099767573c1619b7f",14,1,3,5,6,"RELATION",NA,16814,"Abstract","Relationship",FALSE,NA,NA,NA,NA,NA,NA,NA,NA,NA,TRUE,22,"male","en","US",2025-03-07 17:35:38.94,2025-03-07 17:53:37.497
"133","436twxv","675c15e099767573c1619b7f",14,1,3,6,17,"PROTECTIVE TOOLS",NA,18276,"Concrete","Furniture",FALSE,NA,NA,NA,NA,NA,NA,NA,NA,NA,TRUE,22,"male","en","US",2025-03-07 17:35:38.94,2025-03-07 17:53:37.497
"134","436twxv","675c15e099767573c1619b7f",14,1,3,7,3,"MOOD",NA,3438,"Abstract","Emotion",TRUE,NA,NA,NA,NA,NA,NA,NA,NA,NA,TRUE,22,"male","en","US",2025-03-07 17:35:38.94,2025-03-07 17:53:37.497
"135","436twxv","675c15e099767573c1619b7f",14,1,3,8,4,"PROFESSION",NA,3055,"Abstract","Profession",TRUE,NA,NA,NA,NA,NA,NA,NA,NA,NA,TRUE,22,"male","en","US",2025-03-07 17:35:38.94,2025-03-07 17:53:37.497
"136","436twxv","675c15e099767573c1619b7f",14,1,3,9,16,"FRUITS",NA,2922,"Concrete","Fruit",TRUE,NA,NA,NA,NA,NA,NA,NA,NA,NA,TRUE,22,"male","en","US",2025-03-07 17:35:38.94,2025-03-07 17:53:37.497
"137","436twxv","675c15e099767573c1619b7f",14,1,3,10,7,"RELIGION",NA,4778,"Abstract","Religion",TRUE,NA,NA,NA,NA,NA,NA,NA,NA,NA,TRUE,22,"male","en","US",2025-03-07 17:35:38.94,2025-03-07 17:53:37.497
"138","436twxv","675c15e099767573c1619b7f",14,1,3,11,10,"TIME",NA,4715,"Abstract","Time",TRUE,NA,NA,NA,NA,NA,NA,NA,NA,NA,TRUE,22,"male","en","US",2025-03-07 17:35:38.94,2025-03-07 17:53:37.497
"139","436twxv","675c15e099767573c1619b7f",14,1,3,12,13,"ATTIRE",NA,5555,"Concrete","Clothing",TRUE,NA,NA,NA,NA,NA,NA,NA,NA,NA,TRUE,22,"male","en","US",2025-03-07 17:35:38.94,2025-03-07 17:53:37.497
"140","436twxv","675c15e099767573c1619b7f",14,1,3,13,5,"SIZE",NA,62041,"Abstract","Quantity",FALSE,NA,NA,NA,NA,NA,NA,NA,NA,NA,TRUE,22,"male","en","US",2025-03-07 17:35:38.94,2025-03-07 17:53:37.497
"141","436twxv","675c15e099767573c1619b7f",14,1,3,14,18,"FLAVOR",NA,8722,"Concrete","Plant",FALSE,NA,NA,NA,NA,NA,NA,NA,NA,NA,TRUE,22,"male","en","US",2025-03-07 17:35:38.94,2025-03-07 17:53:37.497
"142","436twxv","675c15e099767573c1619b7f",14,1,3,15,14,"BREAKFAST",NA,9042,"Concrete","Drink",TRUE,NA,NA,NA,NA,NA,NA,NA,NA,NA,TRUE,22,"male","en","US",2025-03-07 17:35:38.94,2025-03-07 17:53:37.497
"143","436twxv","675c15e099767573c1619b7f",14,1,3,16,12,"PLACE",NA,10977,"Concrete","Building",FALSE,NA,NA,NA,NA,NA,NA,NA,NA,NA,TRUE,22,"male","en","US",2025-03-07 17:35:38.94,2025-03-07 17:53:37.497
"144","436twxv","675c15e099767573c1619b7f",14,1,3,17,11,"ANIMAL",NA,4800,"Concrete","Animal",TRUE,NA,NA,NA,NA,NA,NA,NA,NA,NA,TRUE,22,"male","en","US",2025-03-07 17:35:38.94,2025-03-07 17:53:37.497
"145","436twxv","675c15e099767573c1619b7f",14,1,3,18,1,"TALK",NA,6341,"Abstract","Communication",TRUE,NA,NA,NA,NA,NA,NA,NA,NA,NA,TRUE,22,"male","en","US",2025-03-07 17:35:38.94,2025-03-07 17:53:37.497
"146","436twxv","675c15e099767573c1619b7f",14,1,3,19,15,"FOOD",NA,100857,"Concrete","Food",TRUE,NA,NA,NA,NA,NA,NA,NA,NA,NA,TRUE,22,"male","en","US",2025-03-07 17:35:38.94,2025-03-07 17:53:37.497
"147","436twxv","675c15e099767573c1619b7f",14,1,3,20,8,"SHAPE",NA,3569,"Abstract","Shape",TRUE,NA,NA,NA,NA,NA,NA,NA,NA,NA,TRUE,22,"male","en","US",2025-03-07 17:35:38.94,2025-03-07 17:53:37.497
"148","436twxv","673c66f7d2a07d0ccfbeb0a5",18,2,3,1,20,"MEANS OF TRANSPORTATION",15063,NA,"Concrete","Vehicle",TRUE,"target3","target2","target1",NA,NA,NA,NA,NA,NA,TRUE,30,"male","en","US",2025-03-07 17:35:48.768,2025-03-07 17:54:06.251
"149","436twxv","673c66f7d2a07d0ccfbeb0a5",18,2,4,1,1,NA,NA,NA,NA,NA,NA,NA,NA,NA,"food",NA,"Profession",NA,"Religion",NA,TRUE,30,"male","en","US",2025-03-07 17:35:48.768,2025-03-07 17:54:06.251
"150","436twxv","673c66f7d2a07d0ccfbeb0a5",18,2,3,2,9,"GAMES",16732,NA,"Abstract","Sport",FALSE,"target3","target1","unrelated2",NA,NA,NA,NA,NA,NA,TRUE,30,"male","en","US",2025-03-07 17:35:48.768,2025-03-07 17:54:06.251
"151","436twxv","673c66f7d2a07d0ccfbeb0a5",18,2,3,3,19,"TOOLS",6728,NA,"Concrete","Tool",TRUE,"target2","target1","target3",NA,NA,NA,NA,NA,NA,TRUE,30,"male","en","US",2025-03-07 17:35:48.768,2025-03-07 17:54:06.251
"152","436twxv","673c66f7d2a07d0ccfbeb0a5",18,2,3,4,2,"JOBS",13107,NA,"Abstract","Craft",TRUE,"target3","target1","target2",NA,NA,NA,NA,NA,NA,TRUE,30,"male","en","US",2025-03-07 17:35:48.768,2025-03-07 17:54:06.251
"153","436twxv","673c66f7d2a07d0ccfbeb0a5",18,2,3,5,6,"RELATION",12324,NA,"Abstract","Relationship",FALSE,"distractor2","target3","target1",NA,NA,NA,NA,NA,NA,TRUE,30,"male","en","US",2025-03-07 17:35:48.768,2025-03-07 17:54:06.251
"154","436twxv","673c66f7d2a07d0ccfbeb0a5",18,2,3,6,17,"PROTECTIVE TOOLS",36516,NA,"Concrete","Furniture",FALSE,"unrelated3","unrelated1","unrelated4",NA,NA,NA,NA,NA,NA,TRUE,30,"male","en","US",2025-03-07 17:35:48.768,2025-03-07 17:54:06.251
"155","436twxv","673c66f7d2a07d0ccfbeb0a5",18,2,3,7,3,"MOOD",11419,NA,"Abstract","Emotion",TRUE,"target3","target1","target2",NA,NA,NA,NA,NA,NA,TRUE,30,"male","en","US",2025-03-07 17:35:48.768,2025-03-07 17:54:06.251
"156","436twxv","673c66f7d2a07d0ccfbeb0a5",18,2,3,8,4,"PROFESSION",7864,NA,"Abstract","Profession",TRUE,"target1","target3","target2",NA,NA,NA,NA,NA,NA,TRUE,30,"male","en","US",2025-03-07 17:35:48.768,2025-03-07 17:54:06.251
"157","436twxv","673c66f7d2a07d0ccfbeb0a5",18,2,3,9,16,"FRUITS",7654,NA,"Concrete","Fruit",TRUE,"target3","target2","target1",NA,NA,NA,NA,NA,NA,TRUE,30,"male","en","US",2025-03-07 17:35:48.768,2025-03-07 17:54:06.251
"158","436twxv","673c66f7d2a07d0ccfbeb0a5",18,2,3,10,7,"RELIGION",11989,NA,"Abstract","Religion",TRUE,"target1","target3","target2",NA,NA,NA,NA,NA,NA,TRUE,30,"male","en","US",2025-03-07 17:35:48.768,2025-03-07 17:54:06.251
"159","436twxv","673c66f7d2a07d0ccfbeb0a5",18,2,3,11,10,"TIME",8175,NA,"Abstract","Time",TRUE,"target1","target3","target2",NA,NA,NA,NA,NA,NA,TRUE,30,"male","en","US",2025-03-07 17:35:48.768,2025-03-07 17:54:06.251
"160","436twxv","673c66f7d2a07d0ccfbeb0a5",18,2,3,12,13,"ATTIRE",13312,NA,"Concrete","Clothing",TRUE,"target3","target1","target2",NA,NA,NA,NA,NA,NA,TRUE,30,"male","en","US",2025-03-07 17:35:48.768,2025-03-07 17:54:06.251
"161","436twxv","673c66f7d2a07d0ccfbeb0a5",18,2,3,13,5,"SIZE",19029,NA,"Abstract","Quantity",FALSE,"target3","distractor1","target1",NA,NA,NA,NA,NA,NA,TRUE,30,"male","en","US",2025-03-07 17:35:48.768,2025-03-07 17:54:06.251
"162","436twxv","673c66f7d2a07d0ccfbeb0a5",18,2,3,14,18,"FLAVOR",35431,NA,"Concrete","Plant",FALSE,"distractor2","target3","target2",NA,NA,NA,NA,NA,NA,TRUE,30,"male","en","US",2025-03-07 17:35:48.768,2025-03-07 17:54:06.251
"163","436twxv","673c66f7d2a07d0ccfbeb0a5",18,2,3,15,14,"BREAKFAST",15207,NA,"Concrete","Drink",TRUE,"target2","target3","target1",NA,NA,NA,NA,NA,NA,TRUE,30,"male","en","US",2025-03-07 17:35:48.768,2025-03-07 17:54:06.251
"164","436twxv","673c66f7d2a07d0ccfbeb0a5",18,2,3,16,12,"PLACE",18485,NA,"Concrete","Building",FALSE,"target3","target2","distractor2",NA,NA,NA,NA,NA,NA,TRUE,30,"male","en","US",2025-03-07 17:35:48.768,2025-03-07 17:54:06.251
"165","436twxv","673c66f7d2a07d0ccfbeb0a5",18,2,3,17,11,"ANIMAL",12551,NA,"Concrete","Animal",TRUE,"target1","target3","target2",NA,NA,NA,NA,NA,NA,TRUE,30,"male","en","US",2025-03-07 17:35:48.768,2025-03-07 17:54:06.251
"166","436twxv","673c66f7d2a07d0ccfbeb0a5",18,2,3,18,1,"TALK",12823,NA,"Abstract","Communication",TRUE,"target2","target1","target3",NA,NA,NA,NA,NA,NA,TRUE,30,"male","en","US",2025-03-07 17:35:48.768,2025-03-07 17:54:06.251
"167","436twxv","673c66f7d2a07d0ccfbeb0a5",18,2,3,19,15,"FOOD",19395,NA,"Concrete","Food",TRUE,"target1","target3","target2",NA,NA,NA,NA,NA,NA,TRUE,30,"male","en","US",2025-03-07 17:35:48.768,2025-03-07 17:54:06.251
"168","436twxv","673c66f7d2a07d0ccfbeb0a5",18,2,3,20,8,"SHAPE",5793,NA,"Abstract","Shape",TRUE,"target3","target2","target1",NA,NA,NA,NA,NA,NA,TRUE,30,"male","en","US",2025-03-07 17:35:48.768,2025-03-07 17:54:06.251
